t,ax,ay,az,gx,gy,gz
0.10,6156,12772,-10216,-1517,-7546,-6457
0.20,6848,18520,-19404,12836,-8609,5017
0.30,2084,7048,-17100,15975,5362,15950
0.40,7532,6108,-14436,23162,4677,19559
0.50,8496,-15156,-32768,32767,10301,32767
0.60,8120,-4856,116,27621,-12849,32767
0.70,7292,-10480,-15216,-19086,-4552,1028
0.80,3948,2180,-13808,-26968,-17741,-16251
0.90,11812,6272,-26828,-20592,-19444,-15674
1.00,11028,7756,-22336,1115,-16506,751
1.10,9636,5828,-18504,15883,-15165,14384
1.20,10968,1644,-19608,22661,-11259,22324
1.30,6360,-4584,-14200,15009,-8165,17420
1.40,4736,-5652,-10280,833,-7088,6235
1.50,5308,-4276,-11796,-11147,-5491,-4017
1.60,7804,-392,-15492,-18392,-3095,-10494
1.70,8584,3388,-16540,-14605,560,-7387
1.80,8884,4972,-16712,-5042,4413,1546
1.90,8972,5788,-18324,6444,8248,11881
2.00,8208,3736,-18612,15709,12057,19242
2.10,7116,-1296,-17296,17010,15411,18786
2.20,6372,-5236,-15632,7125,16388,9136
2.30,6756,-5084,-15020,-5922,15872,-1620
2.40,9564,-1380,-19192,-14219,15491,-7272
2.50,11520,3752,-23772,-9566,15650,-2696
2.60,9468,4636,-20172,2814,16693,7493
2.70,8572,3212,-19364,13063,15934,14582
2.80,7252,-688,-17780,15845,15225,15008
2.90,5324,-3948,-12544,8532,13071,8001
3.00,5008,-3952,-9616,-1919,9835,48
3.10,5492,-2520,-10072,-9702,5161,-5410
3.20,6916,16,-12848,-12774,1541,-7478
3.30,7256,2016,-13408,-9560,-318,-5035
3.40,7048,2552,-12964,-2718,-3191,107
3.50,7128,1952,-13196,3735,-6010,4991
3.60,7668,-20,-14960,6564,-8054,7512
3.70,7124,-2616,-14260,3194,-10128,5336
3.80,6288,-3816,-13360,-5512,-13092,-1153
3.90,6940,-2516,-15792,-14140,-15374,-8625
4.00,9192,1040,-20832,-15881,-16665,-11880
4.10,9944,3420,-21232,-8492,-16164,-7638
4.20,10276,2944,-20928,835,-15529,-621
4.30,9996,596,-20068,6138,-13785,3795
4.40,8332,-2048,-16976,4761,-12905,2787
4.50,7432,-3056,-15704,-1297,-11982,-2479
4.60,7316,-1588,-15468,-7052,-10454,-8058
4.70,8012,780,-16208,-7863,-7903,-9560
4.80,8456,2592,-16520,-3845,-4478,-6534
4.90,8360,3116,-15844,2675,-891,-844
5.00,8336,2652,-15960,8463,2449,4244
5.10,8096,1224,-16176,12168,5561,7155
5.20,7272,-792,-15304,11878,8046,6428
5.30,7212,-2312,-15440,7698,9868,2355
5.40,7740,-2376,-16364,1923,11353,-2685
5.50,8868,-712,-18344,-1842,12893,-5575
5.60,9932,1504,-20512,-285,14689,-3943
5.70,9868,2428,-21016,5232,16230,642
5.80,9180,1608,-20208,10436,16893,4328
5.90,8308,-608,-18748,11813,16578,4420
6.00,7248,-2464,-16392,7877,15314,602
6.10,6936,-2612,-14900,1671,13194,-4351
6.20,7252,-1180,-14620,-3183,10777,-7768
6.30,7420,412,-14480,-3774,8543,-7806
6.40,7160,1324,-13736,-915,6323,-5395
6.50,6844,1308,-12732,3157,3631,-2378
6.60,6584,544,-12120,6104,438,-244
6.70,6552,-504,-12052,6380,-2621,-100
6.80,6220,-1484,-11876,3937,-5955,-1937
6.90,6128,-1748,-12344,-262,-9761,-5164
7.00,6864,-912,-14616,-3454,-12842,-7959
7.10,8172,652,-17300,-3141,-14339,-8269
7.20,8988,1752,-18760,1054,-15354,-5377
7.30,9640,1536,-19568,6483,-15821,-1065
7.40,9700,192,-19572,9482,-15968,1810
7.50,9096,-1404,-18744,8367,-15765,1425
7.60,8572,-2032,-17876,4221,-15538,-1558
7.70,8684,-1016,-18196,611,-14343,-4563
7.80,8900,456,-18156,159,-12329,-4965
7.90,9040,1508,-17744,2481,-9757,-2896
8.00,8712,1448,-16700,5742,-6797,259
8.10,8136,788,-15684,7728,-4019,2479
8.20,7612,-196,-14916,7606,-1337,2870
8.30,7232,-1144,-14136,5303,1289,1183
8.40,7116,-1420,-14140,1650,3654,-1659
8.50,7552,-1040,-15168,-1906,6085,-4325
8.60,8228,-40,-16292,-3704,8492,-5275
8.70,8872,808,-17624,-3067,10753,-4114
8.80,9124,1020,-18700,-748,12844,-1759
8.90,9012,240,-18904,1096,14420,47
9.00,8836,-752,-18848,822,15104,-170
9.10,8508,-1628,-18172,-1759,15259,-2138
9.20,8484,-1560,-17700,-5578,14602,-4860
9.30,8700,-508,-17716,-7620,13673,-5838
9.40,8680,504,-17356,-6581,12528,-4623
9.50,8172,884,-16396,-3609,11067,-2085
9.60,7656,484,-15156,-768,9209,51
9.70,7088,-140,-13728,527,7096,842
9.80,6588,-548,-12600,331,4490,448
9.90,6292,-852,-11756,-883,1696,-602
10.00,6200,-724,-11708,-2274,-1505,-1863
10.10,6688,-68,-12656,-2666,-4781,-2435
10.20,7224,552,-13800,-1237,-7367,-1585
10.30,7620,1012,-14776,1683,-9633,383
10.40,8072,760,-16076,4697,-11490,2655
10.50,8436,92,-16676,6474,-12872,4173
10.60,8452,-764,-17112,6190,-14013,4169
10.70,8520,-1344,-17724,4155,-14955,2750
10.80,8840,-924,-18624,2038,-15347,1095
10.90,9224,-160,-19192,1633,-14940,661
11.00,9444,556,-19080,2937,-13982,1752
11.10,9412,680,-18660,4835,-12448,3562
11.20,8896,164,-17488,5858,-10706,4891
11.30,8324,-396,-16268,5255,-8666,4842
11.40,7868,-860,-15444,3397,-6510,3665
11.50,7588,-776,-14920,1135,-4295,2018
11.60,7620,-304,-14856,-599,-1826,859
11.70,7764,108,-15156,-1161,782,605
11.80,8024,584,-15520,-762,3336,1293
11.90,8136,636,-15980,226,5862,2304
12.00,8124,340,-16472,1090,8196,3219
12.10,8196,-268,-16876,1189,10333,3346
12.20,8244,-820,-17412,39,12054,2362
12.30,8460,-1072,-17868,-1754,13286,782
12.40,8784,-888,-18356,-3543,14202,-563
12.50,9064,-192,-19000,-4002,14743,-793
12.60,9088,284,-18920,-2813,14905,202
12.70,8792,256,-18504,-1181,14588,1467
12.80,8228,-296,-17452,-118,13828,2097
12.90,7696,-780,-16172,-304,12418,1635
13.00,7264,-960,-14828,-1463,10503,454
13.10,7008,-744,-13800,-2804,8059,-668
13.20,6900,-300,-13136,-3327,5394,-1200
13.30,6800,28,-12756,-2782,2619,-972
13.40,6704,268,-12540,-1584,-104,-266
13.50,6816,176,-12732,-225,-2879,500
13.60,5780,9708,-15856,4404,-2398,986
13.70,6852,-164,-13600,3960,-7931,-1986
13.80,7424,-1020,-15400,2321,-10520,-2983
13.90,7744,-532,-15464,996,-12547,-4497
14.00,8284,60,-17560,1027,-14005,-4845
14.10,9044,576,-18892,2731,-14660,-3834
14.20,9324,596,-19096,5429,-14745,-1809
14.30,9380,168,-18920,7405,-14515,-120
14.40,9212,-608,-18552,7595,-13762,233
14.50,8756,-964,-17664,6223,-12849,-631
14.60,8684,-856,-17464,4291,-11434,-2047
14.70,8432,-304,-16768,3108,-9465,-2866
14.80,8396,348,-16536,3192,-7137,-2495
14.90,8280,568,-15856,4119,-4550,-1401
15.00,8048,472,-15340,4911,-1943,-326
15.10,7772,36,-15008,4945,520,99
15.20,7664,-440,-14956,4098,2575,-346
15.30,7600,-852,-14896,2154,4730,-1698
15.40,7740,-984,-15468,-311,6783,-3428
15.50,8132,-676,-16132,-2415,8568,-4813
15.60,8580,-144,-17168,-3436,10293,-5094
15.70,8992,84,-18008,-3156,11680,-4380
15.80,9016,-24,-18432,-2450,12622,-3348
15.90,8912,-456,-18412,-2240,13098,-2908
16.00,8660,-904,-17884,-3193,12994,-3452
16.10,8400,-948,-17108,-4837,12298,-4471
16.20,8336,-540,-16688,-6048,11161,-5108
16.30,8164,-24,-16088,-5853,9750,-4689
16.40,7956,308,-15452,-4422,8186,-3484
16.50,7464,348,-14412,-2508,6285,-1963
16.60,7176,248,-13628,-856,4058,-824
16.70,6932,-76,-13008,59,1742,-300
16.80,6720,-216,-12572,307,-625,-302
16.90,6784,-368,-12888,292,-3162,-524
17.00,7104,-124,-13436,572,-5560,-512
17.10,7412,116,-14288,1515,-7610,17
17.20,7816,452,-15336,3187,-9292,1101
17.30,8264,352,-16188,5159,-10649,2576
17.40,8528,0,-16944,6670,-11728,3705
17.50,8716,-428,-17256,6998,-12426,4100
17.60,8800,-796,-17792,6205,-12876,3686
17.70,8920,-736,-17920,4856,-12844,2828
17.80,9116,-368,-18116,4029,-12409,2446
17.90,9152,88,-18092,4147,-11378,2946
18.00,9036,256,-17508,4816,-9994,3863
18.10,8640,40,-16828,5224,-8351,4732
18.20,8340,-264,-16148,4833,-6606,4818
18.30,7936,-552,-15388,3508,-4634,4160
18.40,7700,-624,-14940,1653,-2560,2999
18.50,7672,-504,-14800,-67,-365,1815
18.60,7756,-224,-15196,-1194,1780,1157
18.70,7964,-32,-15500,-1625,4078,1071
18.80,8208,204,-16048,-1488,6237,1477
18.90,8300,12,-16536,-1205,8264,1902
19.00,8436,-372,-16980,-1294,9980,1946
19.10,8492,-684,-17372,-1996,11380,1429
19.20,8552,-884,-17776,-3329,12343,450
19.30,8816,-664,-18060,-4505,12933,-320
19.40,8884,-364,-18180,-4925,13115,-500
19.50,8684,-128,-17940,-4352,12942,-36
19.60,8460,-104,-17436,-3278,12335,759
19.70,8076,-268,-16564,-2387,11358,1267
19.80,7624,-512,-15456,-2072,9844,1234
19.90,7260,-624,-14360,-2309,7919,775
20.00,7044,-536,-13520,-2669,5709,244
20.10,6912,-324,-13128,-2744,3268,-3
20.20,6904,-124,-12852,-2331,799,72
20.30,6948,-16,-13092,-1558,-1634,436
20.40,7032,60,-13372,-530,-4051,929
20.50,7112,-892,-12104,2622,-6444,-616
20.60,7328,-840,-14320,2837,-8496,-829
20.70,7676,-780,-15264,2286,-10273,-1378
20.80,7948,-468,-16072,1845,-11945,-2035
20.90,8612,-24,-17488,2274,-12975,-1981
21.00,8984,172,-18204,3485,-13300,-1319
21.10,9000,144,-18188,4826,-13350,-261
21.20,9172,-152,-18304,5603,-12814,423
21.30,8872,-464,-17720,5499,-12034,500
21.40,8648,-616,-17248,4742,-10875,51
21.50,8428,-464,-16744,3861,-9433,-533
21.60,8356,-148,-16504,3253,-7639,-855
21.70,8260,28,-16032,3158,-5546,-792
21.80,8036,168,-15564,3252,-3414,-407
21.90,8032,48,-15500,3324,-1130,-108
22.00,7904,-92,-15236,2980,1072,-119
22.10,7716,-368,-15156,2197,3211,-545
22.20,7800,-492,-15532,972,5174,-1360
22.30,7988,-524,-15884,-432,7012,-2268
22.40,8348,-412,-16512,-1566,8672,-2953
22.50,8548,-260,-17284,-2149,10067,-3174
22.60,8712,-192,-17568,-2208,11266,-2955
22.70,8768,-340,-17908,-2130,11984,-2629
22.80,8672,-548,-17832,-2359,12182,-2700
22.90,8456,-688,-17276,-3027,11917,-3096
23.00,8280,-608,-16724,-3748,11162,-3616
23.10,8084,-376,-16092,-4011,9958,-3696
23.20,7892,-100,-15532,-3523,8544,-3311
23.30,7604,32,-14880,-2557,6775,-2610
23.40,7320,72,-14004,-1483,4881,-1889
23.50,7096,-56,-13468,-563,2715,-1365
23.60,7016,-184,-13132,34,425,-1087
23.70,6964,-112,-13120,392,-1818,-996
23.80,7088,-44,-13468,826,-4064,-866
23.90,7316,20,-14016,1499,-6097,-529
24.00,7608,104,-14716,2546,-7811,89
24.10,7928,140,-15480,3805,-9206,859
24.20,8204,-24,-16240,4965,-10329,1667
24.30,8512,-312,-16876,5691,-11272,2176
24.40,8704,-432,-17236,5718,-11818,2290
24.50,8788,-524,-17532,5192,-11937,2037
24.60,8932,-300,-17700,4679,-11651,1787
24.70,8952,-164,-17732,4566,-10928,1956
24.80,8864,8,-17208,4791,-9726,2467
24.90,8712,-32,-16808,4885,-8403,2915
25.00,8452,-108,-16296,4708,-6816,3179
25.10,8180,-300,-15724,3895,-5077,2903
25.20,7908,-452,-15296,2763,-3154,2284
25.30,7856,-436,-15020,1416,-1158,1494
25.40,7828,-328,-15132,312,882,797
25.50,7984,-240,-15356,-414,2805,520
25.60,8100,-96,-15668,-851,4647,491
25.70,8176,-212,-16012,-1052,6449,559
25.80,8284,-332,-16376,-1413,8076,519
25.90,8376,-400,-16928,-2016,9477,222
26.00,8552,-628,-17168,-2828,10485,-265
26.10,8600,-640,-17380,-3826,11217,-926
26.20,8748,-484,-17676,-4455,11561,-1252
26.30,8588,-340,-17728,-4322,11576,-1139
26.40,8556,-196,-17268,-3767,11179,-676
26.50,8172,-232,-16476,-3153,10402,-241
26.60,7840,-408,-15660,-2696,9187,-29
26.70,7532,-476,-14876,-2655,7647,-214
26.80,7272,-412,-14108,-2680,5763,-447
26.90,7092,-280,-13740,-2521,3627,-514
27.00,7052,-76,-13376,-1967,1304,-372
27.10,7092,-8,-13420,-1109,-901,57
27.20,7100,24,-13612,-211,-2928,515
27.30,7292,60,-13848,667,-4877,981
27.40,7380,-116,-14236,1374,-6648,1287
27.50,7584,-316,-14944,1812,-8465,1358
27.60,7900,-436,-15572,1920,-9962,1228
27.70,8192,-392,-16280,1951,-11091,995
27.80,8476,-360,-17068,2168,-11863,951
27.90,8732,-136,-17492,2622,-12124,1161
28.00,8800,-108,-17708,3264,-11970,1582
28.10,8868,-212,-17544,3706,-11367,1961
28.20,8668,-328,-17372,3691,-10465,2005
28.30,8528,-416,-16872,3342,-9220,1827
28.40,8376,-316,-16372,2753,-7757,1511
28.50,8204,-244,-16060,2280,-6005,1174
28.60,8112,-96,-15660,1953,-4016,1070
28.70,8012,20,-15644,1812,-2006,1099
28.80,8020,12,-15416,1744,94,1172
28.90,8000,-88,-15488,1550,1921,1133
29.00,7912,-232,-15472,1223,3890,942
29.10,8036,-372,-15880,640,5702,518
29.20,8140,-384,-16116,-46,7303,31
29.30,8280,-472,-16516,-680,8629,-512
29.40,8436,-412,-17028,-1185,9881,-852
29.50,8624,-248,-17332,-1400,10820,-1031
29.60,8612,-256,-17572,-1302,11428,-955
29.70,8520,-356,-17364,-1245,11659,-924
29.80,8356,-496,-16980,-1348,11353,-1154
29.90,8116,-620,-16544,-1709,10679,-1487
30.00,7908,-516,-15860,-2017,9491,-1895
30.10,7628,-392,-15164,-2058,8015,-2020
30.20,7520,-264,-14568,-1707,6286,-1991
30.30,7272,-172,-13928,-1103,4256,-1709
30.40,7160,-104,-13512,-429,2108,-1472
30.50,7036,-280,-13268,119,-147,-1355
30.60,7012,-212,-13424,511,-2342,-1339
30.70,7188,-336,-13800,770,-4605,-1352
30.80,7348,-208,-14312,1233,-6509,-1359
30.90,7696,-60,-15000,1908,-8248,-1107
31.00,8052,-68,-15760,2757,-9660,-730
31.10,8284,-104,-16380,3528,-10571,-244
31.20,8452,-228,-17060,4200,-11219,81
31.30,8620,-392,-17340,4435,-11534,199
31.40,8688,-368,-17472,4395,-11406,164
31.50,8776,-304,-17488,4298,-10898,117
31.60,8776,-200,-17248,4322,-10039,200
31.70,8596,-24,-16836,4477,-8780,412
31.80,8584,-52,-16624,4543,-7375,676
31.90,8400,-148,-16152,4375,-5809,826
32.00,8028,-280,-15608,3921,-4063,672
32.10,7972,-264,-15320,3229,-2180,310
32.20,7864,-384,-15296,2293,-294,-178
32.30,7964,-236,-15384,1450,1678,-644
32.40,8064,-244,-15512,721,3477,-1037
32.50,8080,-164,-15776,176,5259,-1226
32.60,8120,-220,-16092,-241,6807,-1382
32.70,8232,-360,-16580,-708,8154,-1559
32.80,8416,-464,-16752,-1376,9283,-1842
32.90,8496,-636,-16964,-2155,10037,-2328
33.00,8564,-488,-17220,-2939,10392,-2791
33.10,8516,-368,-17104,-3406,10438,-3019
33.20,8432,-364,-16952,-3418,10061,-2942
33.30,8328,-180,-16404,-3122,9403,-2646
33.40,7960,-188,-15784,-2780,8303,-2308
33.50,7704,-304,-15100,-2449,6912,-2117
33.60,7496,-248,-14512,-2205,5238,-2042
33.70,7276,-224,-13884,-1880,3291,-1995
33.80,7184,-144,-13568,-1376,1242,-1730
33.90,7256,28,-13752,-544,-839,-1380
34.00,7244,180,-13776,371,-2759,-852
34.10,7360,196,-14160,1435,-4520,-246
34.20,7588,-12,-14676,2487,-6188,369
34.30,7804,-188,-15172,3281,-7614,781
34.40,7972,-200,-15596,3797,-8815,968
34.50,8192,-272,-16124,3999,-9748,1048
34.60,8484,-316,-16760,4081,-10328,1035
34.70,8612,-196,-17172,4312,-10488,1303
34.80,8816,-44,-17364,4760,-10314,1689
34.90,8848,-92,-17272,5161,-9770,2251
35.00,8752,-84,-17112,5327,-8924,2574
35.10,8544,-300,-16744,5061,-7879,2646
35.20,8412,-440,-16292,4367,-6593,2387
35.30,8236,-324,-15888,3436,-5099,1864
35.40,8104,-244,-15520,2545,-3413,1451
35.50,8036,-128,-15520,1882,-1645,1212
35.60,8068,-152,-15420,1414,235,1120
35.70,7968,-124,-15456,1027,2017,1040
35.80,8016,-188,-15516,556,3762,867
35.90,8052,-392,-15680,-142,5244,488
36.00,8180,-476,-15984,-1033,6648,-45
36.10,8356,-572,-16364,-2003,7844,-677
36.20,8396,-436,-16716,-2834,8814,-1152
36.30,8464,-328,-17088,-3254,9623,-1364
36.40,8612,-212,-17312,-3316,10042,-1262
36.50,8468,-300,-17032,-3187,10130,-1031
36.60,8296,-472,-16664,-3132,9739,-1005
36.70,8140,-388,-16320,-3246,9100,-1169
36.80,7848,-492,-15696,-3410,8017,-1336
36.90,7652,-348,-15060,-3345,6636,-1368
37.00,7548,-152,-14752,-2881,5035,-1210
37.10,7452,-40,-14084,-2139,3241,-850
37.20,7268,-24,-13872,-1300,1403,-389
37.30,7152,-40,-13704,-536,-501,-16
37.40,7236,-120,-13960,60,-2317,170
37.50,7352,-228,-14072,543,-4116,292
37.60,7528,-224,-14392,1008,-5751,422
37.70,7732,-132,-14960,1506,-7272,536
37.80,7968,-88,-15632,2083,-8502,752
37.90,8160,-168,-16112,2724,-9410,978
38.00,8356,-200,-16616,3326,-10064,1238
38.10,8492,-296,-16876,3740,-10355,1483
38.20,8664,-288,-17068,3950,-10302,1629
38.30,8636,-328,-17096,3909,-9869,1632
38.40,8656,-252,-17072,3834,-9147,1635
38.50,8516,-128,-16640,3715,-8127,1658
38.60,8420,-164,-16424,3546,-6839,1658
38.70,8312,-144,-16020,3324,-5305,1619
38.80,8112,-176,-15720,3000,-3676,1555
38.90,8064,-288,-15504,2521,-1865,1352
39.00,7996,-244,-15328,1954,-41,1070
39.10,7948,-260,-15444,1308,1676,724
39.20,8000,-252,-15468,681,3350,342
39.30,8056,-260,-15732,103,4882,29
39.40,8168,-288,-16040,-356,6228,-276
39.50,8260,-316,-16408,-782,7445,-518
39.60,8308,-392,-16732,-1222,8505,-727
39.70,8388,-420,-16856,-1610,9296,-1071
39.80,8384,-468,-16828,-2077,9739,-1367
39.90,8376,-428,-16832,-2406,9879,-1604
40.00,8256,-464,-16532,-2590,9612,-1743
40.10,8196,-336,-16416,-2575,9047,-1771
40.20,7924,-288,-15828,-2452,8120,-1783
40.30,7772,-264,-15268,-2188,6895,-1680
40.40,7544,-272,-14728,-1911,5368,-1650
40.50,7428,-180,-14260,-1580,3674,-1551
40.60,7296,-216,-13868,-1192,1716,-1531
40.70,7252,-156,-13868,-699,-311,-1361
40.80,7272,-88,-13952,-49,-2143,-1109
40.90,7440,-24,-14080,644,-3915,-862
41.00,7568,-140,-14480,1394,-5488,-511
41.10,7816,-68,-15000,2177,-6996,-146
41.20,7956,-156,-15488,2835,-8108,123
41.30,8208,-204,-16044,3286,-9057,294
41.40,8312,-324,-16468,3603,-9654,377
41.50,8412,-204,-16768,3879,-9943,460
41.60,8604,-264,-17012,4165,-9879,621
41.70,8692,-148,-17140,4403,-9463,864
41.80,8652,-80,-16900,4614,-8741,1127
41.90,8548,-196,-16644,4657,-7845,1302
42.00,8460,-224,-16400,4438,-6654,1291
42.10,8276,-212,-16028,4012,-5214,1133
42.20,8240,-244,-15688,3414,-3725,886
42.30,8076,-192,-15500,2816,-2052,607
42.40,7980,-196,-15312,2211,-392,350
42.50,8024,-240,-15452,1670,1252,132
42.60,7988,-252,-15432,1185,2834,-57
42.70,8100,-280,-15720,602,4352,-378
42.80,8032,-420,-15956,-62,5708,-744
42.90,8164,-476,-16156,-726,6841,-1196
43.00,8292,-488,-16424,-1508,7806,-1649
43.10,8420,-460,-16648,-2143,8570,-1998
43.20,8448,-404,-16844,-2556,8976,-2177
43.30,8460,-344,-16672,-2762,9115,-2201
43.40,8236,-388,-16588,-2852,8968,-2235
43.50,8228,-412,-16172,-2899,8398,-2180
43.60,8060,-376,-15832,-2923,7518,-2251
43.70,7828,-304,-15264,-2869,6359,-2244
43.80,7700,-220,-14692,-2526,4964,-2129
43.90,7616,-156,-14464,-2061,3381,-1892
44.00,7456,-40,-14172,-1391,1635,-1593
44.10,7344,-56,-13976,-649,-163,-1188
44.20,7408,4,-13928,67,-1792,-871
44.30,7480,-36,-14168,729,-3306,-567
44.40,7580,-64,-14520,1414,-4796,-241
44.50,7704,-120,-14944,2129,-6248,60
44.60,7892,-52,-15436,2820,-7317,353
44.70,8100,-80,-15776,3393,-8221,660
44.80,8284,-168,-16140,3899,-8801,875
44.90,8464,-168,-16576,4288,-9165,1160
45.00,8576,-204,-16880,4588,-9162,1400
45.10,8608,-220,-16896,4752,-8897,1615
45.20,8652,-200,-16736,4788,-8363,1761
45.30,8548,-156,-16748,4656,-7468,1858
45.40,8420,-244,-16328,4418,-6383,1878
45.50,8344,-228,-16076,4024,-5146,1804
45.60,8208,-236,-15788,3518,-3665,1669
45.70,8080,-292,-15564,2863,-2200,1379
45.80,8052,-196,-15412,2218,-596,1098
45.90,8024,-288,-15436,1529,961,788
46.00,7972,-284,-15408,860,2409,484
46.10,7988,-304,-15592,214,3803,165
46.20,8060,-380,-15808,-425,5060,-166
46.30,8216,-344,-16012,-1090,6237,-562
46.40,8280,-440,-16288,-1775,7226,-894
46.50,8360,-380,-16568,-2335,7963,-1233
46.60,8396,-376,-16644,-2818,8535,-1481
46.70,8404,-396,-16580,-3101,8671,-1588
46.80,8268,-324,-16488,-3248,8539,-1604
46.90,8212,-316,-16172,-3314,8140,-1630
47.00,7996,-356,-15836,-3345,7399,-1654
47.10,7888,-296,-15432,-3157,6388,-1569
47.20,7704,-176,-14956,-2851,5088,-1442
47.30,7568,-204,-14576,-2388,3595,-1253
47.40,7332,-140,-14252,-1804,2004,-1023
47.50,7380,-120,-14100,-1221,252,-758
47.60,7380,-40,-14164,-529,-1386,-476
47.70,7444,-76,-14352,158,-2989,-188
47.80,7484,-140,-14468,858,-4442,82
47.90,7720,-104,-14848,1522,-5711,391
48.00,7900,-124,-15300,2220,-6884,709
48.10,8092,-148,-15772,2866,-7815,956
48.20,8284,-152,-16176,3308,-8483,1111
48.30,8396,-244,-16452,3686,-8842,1278
48.40,8488,-180,-16716,3923,-8918,1397
48.50,8544,-184,-16768,4131,-8707,1518
48.60,8576,-160,-16760,4251,-8182,1704
48.70,8572,-116,-16664,4270,-7382,1836
48.80,8424,-116,-16304,4172,-6353,1897
48.90,8304,-212,-16096,3892,-5141,1838
49.00,8160,-208,-15744,3380,-3733,1637
49.10,8128,-228,-15644,2844,-2293,1305
49.20,8008,-216,-15396,2189,-719,994
49.30,8024,-204,-15420,1608,710,763
49.40,8044,-204,-15460,1072,2203,465
49.50,8048,-240,-15576,553,3570,190
49.60,8104,-296,-15824,78,4835,-91
49.70,8180,-372,-15992,-507,5947,-412
49.80,8384,-372,-16292,-1174,7034,-797
49.90,8392,-280,-16140,-1701,7816,-1208
50.00,8472,-456,-17120,-2287,8054,-1558
